{
  "resourceType": "Bundle",
  "id": "9a9e0d20-9a9b-43b1-86b1-b2fd51261d14",
  "meta": {
    "lastUpdated": "2023-05-02T08:48:06.435+00:00"
  },
  "type": "searchset",
  "link": [
    {
      "relation": "self",
      "url": "https://hapi.fhir.org/baseR4/Observation?_include=*"
    },
    {
      "relation": "next",
      "url": "https://hapi.fhir.org/baseR4?_getpages=9a9e0d20-9a9b-43b1-86b1-b2fd51261d14&_getpagesoffset=20&_count=20&_pretty=true&_include=*&_bundletype=searchset"
    }
  ],
  "entry": [
    {
      "fullUrl": "https://hapi.fhir.org/baseR4/Observation/8931520",
      "resource": {
        "resourceType": "Observation",
        "id": "8931520",
        "meta": {
          "versionId": "1",
          "lastUpdated": "2023-03-29T16:01:07.622+00:00",
          "source": "#ZjWzeNt0Gb5HoUdq"
        },
        "status": "final",
        "code": {
          "coding": [
            {
              "system": "http://loinc.org",
              "code": "8867-4",
              "display": "Heart rate"
            }
          ]
        },
        "subject": {
          "reference": "Patient/7304958"
        },
        "effectivePeriod": {
          "start": "2023-01-26T04:18:00.000+01:00",
          "end": "2023-01-26T04:18:00.000+01:00"
        },
        "valueQuantity": {
          "value": 57.0,
          "unit": "beats/min",
          "system": "http://unitsofmeasure.org",
          "code": "/min"
        }
      },
      "search": {
        "mode": "match"
      }
    },
    {
      "fullUrl": "https://hapi.fhir.org/baseR4/Observation/8931521",
      "resource": {
        "resourceType": "Observation",
        "id": "8931521",
        "meta": {
          "versionId": "1",
          "lastUpdated": "2023-03-29T16:01:07.726+00:00",
          "source": "#ZjWzeNt0Gb5HoUdq"
        },
        "status": "final",
        "code": {
          "coding": [
            {
              "system": "http://loinc.org",
              "code": "8867-4",
              "display": "Heart rate"
            }
          ]
        },
        "subject": {
          "reference": "Patient/7304958"
        },
        "effectivePeriod": {
          "start": "2023-01-26T04:19:00.000+01:00",
          "end": "2023-01-26T04:19:00.000+01:00"
        },
        "valueQuantity": {
          "value": 60.0,
          "unit": "beats/min",
          "system": "http://unitsofmeasure.org",
          "code": "/min"
        }
      },
      "search": {
        "mode": "match"
      }
    },
    {
      "fullUrl": "https://hapi.fhir.org/baseR4/Observation/8931522",
      "resource": {
        "resourceType": "Observation",
        "id": "8931522",
        "meta": {
          "versionId": "1",
          "lastUpdated": "2023-03-29T16:01:07.868+00:00",
          "source": "#ZjWzeNt0Gb5HoUdq"
        },
        "status": "final",
        "code": {
          "coding": [
            {
              "system": "http://loinc.org",
              "code": "8867-4",
              "display": "Heart rate"
            }
          ]
        },
        "subject": {
          "reference": "Patient/7304958"
        },
        "effectivePeriod": {
          "start": "2023-01-26T04:20:00.000+01:00",
          "end": "2023-01-26T04:20:00.000+01:00"
        },
        "valueQuantity": {
          "value": 55.0,
          "unit": "beats/min",
          "system": "http://unitsofmeasure.org",
          "code": "/min"
        }
      },
      "search": {
        "mode": "match"
      }
    },
    {
      "fullUrl": "https://hapi.fhir.org/baseR4/Observation/8931523",
      "resource": {
        "resourceType": "Observation",
        "id": "8931523",
        "meta": {
          "versionId": "1",
          "lastUpdated": "2023-03-29T16:01:07.991+00:00",
          "source": "#ZjWzeNt0Gb5HoUdq"
        },
        "status": "final",
        "code": {
          "coding": [
            {
              "system": "http://loinc.org",
              "code": "8867-4",
              "display": "Heart rate"
            }
          ]
        },
        "subject": {
          "reference": "Patient/7304958"
        },
        "effectivePeriod": {
          "start": "2023-01-26T04:21:00.000+01:00",
          "end": "2023-01-26T04:21:00.000+01:00"
        },
        "valueQuantity": {
          "value": 54.0,
          "unit": "beats/min",
          "system": "http://unitsofmeasure.org",
          "code": "/min"
        }
      },
      "search": {
        "mode": "match"
      }
    },
    {
      "fullUrl": "https://hapi.fhir.org/baseR4/Observation/1857014",
      "resource": {
        "resourceType": "Observation",
        "id": "1857014",
        "meta": {
          "versionId": "1",
          "lastUpdated": "2021-02-14T13:25:50.879+00:00",
          "source": "#FRZ4DIsFpv14Fhzq"
        },
        "contained": [
          {
            "resourceType": "Device",
            "id": "1",
            "status": "active",
            "manufacturer": "Bloodpressure GmbH",
            "manufactureDate": "2020-08-01",
            "lotNumber": "4362816489",
            "serialNumber": "38768439667845",
            "deviceName": [
              {
                "name": "Blood pressure monitor",
                "type": "user-friendly-name"
              }
            ],
            "modelNumber": "4376983469",
            "partNumber": "3287486898764",
            "type": {
              "coding": [
                {
                  "system": "http://hl7.org/fhir/ValueSet/device-type",
                  "code": "258057004",
                  "display": "Non-invasive blood pressure monitor device (Physical object)"
                }
              ]
            },
            "url": "http:\\192.168.65:6745"
          }
        ],
        "status": "final",
        "category": [
          {
            "coding": [
              {
                "system": "http://hl7.org/fhir/ValueSet/observation-category",
                "code": "vital-signs",
                "display": "Vital signs"
              }
            ]
          }
        ],
        "code": {
          "coding": [
            {
              "system": "http://snomed.info/sct",
              "code": "75367002",
              "display": "Blood pressure"
            }
          ],
          "text": "Blood pressure systolic and diastolic"
        },
        "effectiveDateTime": "2020-02-01",
        "interpretation": [
          {
            "coding": [
              {
                "system": "http://terminology.hl7.org/CodeSystem/v3-ObservationInterpretation",
                "code": "L",
                "display": "low"
              }
            ]
          }
        ],
        "device": {
          "reference": "#1"
        },
        "component": [
          {
            "code": {
              "coding": [
                {
                  "system": "http://snomed.info/sct",
                  "code": "271649006",
                  "display": "Systolic blood pressure"
                }
              ]
            },
            "valueQuantity": {
              "value": 93,
              "unit": "mmHg",
              "system": "http://unitsofmeasure.org",
              "code": "mm[Hg]"
            }
          },
          {
            "code": {
              "coding": [
                {
                  "system": "http://snomed.info/sct",
                  "code": "271650006",
                  "display": "Diastolic blood pressure"
                }
              ]
            },
            "valueQuantity": {
              "value": 74,
              "unit": "mmHg",
              "system": "http://unitsofmeasure.org",
              "code": "mm[Hg]"
            }
          }
        ]
      },
      "search": {
        "mode": "match"
      }
    },
    {
      "fullUrl": "https://hapi.fhir.org/baseR4/Observation/1857015",
      "resource": {
        "resourceType": "Observation",
        "id": "1857015",
        "meta": {
          "versionId": "1",
          "lastUpdated": "2021-02-14T13:26:45.419+00:00",
          "source": "#XoDW2InqYhrqwTCo"
        },
        "contained": [
          {
            "resourceType": "Device",
            "id": "1",
            "status": "active",
            "manufacturer": "Bloodpressure GmbH",
            "manufactureDate": "2020-08-01",
            "lotNumber": "4362816489",
            "serialNumber": "38768439667845",
            "deviceName": [
              {
                "name": "Blood pressure monitor",
                "type": "user-friendly-name"
              }
            ],
            "modelNumber": "4376983469",
            "partNumber": "3287486898764",
            "type": {
              "coding": [
                {
                  "system": "http://hl7.org/fhir/ValueSet/device-type",
                  "code": "258057004",
                  "display": "Non-invasive blood pressure monitor device (Physical object)"
                }
              ]
            },
            "url": "http:\\192.168.65:6745"
          }
        ],
        "status": "final",
        "category": [
          {
            "coding": [
              {
                "system": "http://hl7.org/fhir/ValueSet/observation-category",
                "code": "vital-signs",
                "display": "Vital signs"
              }
            ]
          }
        ],
        "code": {
          "coding": [
            {
              "system": "http://snomed.info/sct",
              "code": "75367002",
              "display": "Blood pressure"
            }
          ],
          "text": "Blood pressure systolic and diastolic"
        },
        "effectiveDateTime": "2020-02-01",
        "interpretation": [
          {
            "coding": [
              {
                "system": "http://terminology.hl7.org/CodeSystem/v3-ObservationInterpretation",
                "code": "L",
                "display": "low"
              }
            ]
          }
        ],
        "device": {
          "reference": "#1"
        },
        "component": [
          {
            "code": {
              "coding": [
                {
                  "system": "http://snomed.info/sct",
                  "code": "271649006",
                  "display": "Systolic blood pressure"
                }
              ]
            },
            "valueQuantity": {
              "value": 93,
              "unit": "mmHg",
              "system": "http://unitsofmeasure.org",
              "code": "mm[Hg]"
            }
          },
          {
            "code": {
              "coding": [
                {
                  "system": "http://snomed.info/sct",
                  "code": "271650006",
                  "display": "Diastolic blood pressure"
                }
              ]
            },
            "valueQuantity": {
              "value": 74,
              "unit": "mmHg",
              "system": "http://unitsofmeasure.org",
              "code": "mm[Hg]"
            }
          }
        ]
      },
      "search": {
        "mode": "match"
      }
    },
    {
      "fullUrl": "https://hapi.fhir.org/baseR4/Observation/8931524",
      "resource": {
        "resourceType": "Observation",
        "id": "8931524",
        "meta": {
          "versionId": "1",
          "lastUpdated": "2023-03-29T16:01:08.055+00:00",
          "source": "#ZjWzeNt0Gb5HoUdq"
        },
        "status": "final",
        "code": {
          "coding": [
            {
              "system": "http://loinc.org",
              "code": "8867-4",
              "display": "Heart rate"
            }
          ]
        },
        "subject": {
          "reference": "Patient/7304958"
        },
        "effectivePeriod": {
          "start": "2023-01-26T04:22:00.000+01:00",
          "end": "2023-01-26T04:22:00.000+01:00"
        },
        "valueQuantity": {
          "value": 58.0,
          "unit": "beats/min",
          "system": "http://unitsofmeasure.org",
          "code": "/min"
        }
      },
      "search": {
        "mode": "match"
      }
    },
    {
      "fullUrl": "https://hapi.fhir.org/baseR4/Observation/8931525",
      "resource": {
        "resourceType": "Observation",
        "id": "8931525",
        "meta": {
          "versionId": "1",
          "lastUpdated": "2023-03-29T16:01:08.164+00:00",
          "source": "#ZjWzeNt0Gb5HoUdq"
        },
        "status": "final",
        "code": {
          "coding": [
            {
              "system": "http://loinc.org",
              "code": "8867-4",
              "display": "Heart rate"
            }
          ]
        },
        "subject": {
          "reference": "Patient/7304958"
        },
        "effectivePeriod": {
          "start": "2023-01-26T04:23:00.000+01:00",
          "end": "2023-01-26T04:23:00.000+01:00"
        },
        "valueQuantity": {
          "value": 53.0,
          "unit": "beats/min",
          "system": "http://unitsofmeasure.org",
          "code": "/min"
        }
      },
      "search": {
        "mode": "match"
      }
    },
    {
      "fullUrl": "https://hapi.fhir.org/baseR4/Observation/8931526",
      "resource": {
        "resourceType": "Observation",
        "id": "8931526",
        "meta": {
          "versionId": "1",
          "lastUpdated": "2023-03-29T16:01:08.345+00:00",
          "source": "#ZjWzeNt0Gb5HoUdq"
        },
        "status": "final",
        "code": {
          "coding": [
            {
              "system": "http://loinc.org",
              "code": "8867-4",
              "display": "Heart rate"
            }
          ]
        },
        "subject": {
          "reference": "Patient/7304958"
        },
        "effectivePeriod": {
          "start": "2023-01-26T04:24:00.000+01:00",
          "end": "2023-01-26T04:24:00.000+01:00"
        },
        "valueQuantity": {
          "value": 52.0,
          "unit": "beats/min",
          "system": "http://unitsofmeasure.org",
          "code": "/min"
        }
      },
      "search": {
        "mode": "match"
      }
    },
    {
      "fullUrl": "https://hapi.fhir.org/baseR4/Observation/8931527",
      "resource": {
        "resourceType": "Observation",
        "id": "8931527",
        "meta": {
          "versionId": "1",
          "lastUpdated": "2023-03-29T16:01:08.455+00:00",
          "source": "#ZjWzeNt0Gb5HoUdq"
        },
        "status": "final",
        "code": {
          "coding": [
            {
              "system": "http://loinc.org",
              "code": "8867-4",
              "display": "Heart rate"
            }
          ]
        },
        "subject": {
          "reference": "Patient/7304958"
        },
        "effectivePeriod": {
          "start": "2023-01-26T04:25:00.000+01:00",
          "end": "2023-01-26T04:25:00.000+01:00"
        },
        "valueQuantity": {
          "value": 52.0,
          "unit": "beats/min",
          "system": "http://unitsofmeasure.org",
          "code": "/min"
        }
      },
      "search": {
        "mode": "match"
      }
    },
    {
      "fullUrl": "https://hapi.fhir.org/baseR4/Observation/8931528",
      "resource": {
        "resourceType": "Observation",
        "id": "8931528",
        "meta": {
          "versionId": "1",
          "lastUpdated": "2023-03-29T16:01:08.629+00:00",
          "source": "#ZjWzeNt0Gb5HoUdq"
        },
        "status": "final",
        "code": {
          "coding": [
            {
              "system": "http://loinc.org",
              "code": "8867-4",
              "display": "Heart rate"
            }
          ]
        },
        "subject": {
          "reference": "Patient/7304958"
        },
        "effectivePeriod": {
          "start": "2023-01-26T04:26:00.000+01:00",
          "end": "2023-01-26T04:26:00.000+01:00"
        },
        "valueQuantity": {
          "value": 55.0,
          "unit": "beats/min",
          "system": "http://unitsofmeasure.org",
          "code": "/min"
        }
      },
      "search": {
        "mode": "match"
      }
    },
    {
      "fullUrl": "https://hapi.fhir.org/baseR4/Observation/8931529",
      "resource": {
        "resourceType": "Observation",
        "id": "8931529",
        "meta": {
          "versionId": "1",
          "lastUpdated": "2023-03-29T16:01:08.704+00:00",
          "source": "#ZjWzeNt0Gb5HoUdq"
        },
        "status": "final",
        "code": {
          "coding": [
            {
              "system": "http://loinc.org",
              "code": "8867-4",
              "display": "Heart rate"
            }
          ]
        },
        "subject": {
          "reference": "Patient/7304958"
        },
        "effectivePeriod": {
          "start": "2023-01-26T04:27:00.000+01:00",
          "end": "2023-01-26T04:27:00.000+01:00"
        },
        "valueQuantity": {
          "value": 52.0,
          "unit": "beats/min",
          "system": "http://unitsofmeasure.org",
          "code": "/min"
        }
      },
      "search": {
        "mode": "match"
      }
    },
    {
      "fullUrl": "https://hapi.fhir.org/baseR4/Observation/8931530",
      "resource": {
        "resourceType": "Observation",
        "id": "8931530",
        "meta": {
          "versionId": "1",
          "lastUpdated": "2023-03-29T16:01:08.774+00:00",
          "source": "#ZjWzeNt0Gb5HoUdq"
        },
        "status": "final",
        "code": {
          "coding": [
            {
              "system": "http://loinc.org",
              "code": "8867-4",
              "display": "Heart rate"
            }
          ]
        },
        "subject": {
          "reference": "Patient/7304958"
        },
        "effectivePeriod": {
          "start": "2023-01-26T04:28:00.000+01:00",
          "end": "2023-01-26T04:28:00.000+01:00"
        },
        "valueQuantity": {
          "value": 52.0,
          "unit": "beats/min",
          "system": "http://unitsofmeasure.org",
          "code": "/min"
        }
      },
      "search": {
        "mode": "match"
      }
    },
    {
      "fullUrl": "https://hapi.fhir.org/baseR4/Observation/8931531",
      "resource": {
        "resourceType": "Observation",
        "id": "8931531",
        "meta": {
          "versionId": "1",
          "lastUpdated": "2023-03-29T16:01:08.833+00:00",
          "source": "#ZjWzeNt0Gb5HoUdq"
        },
        "status": "final",
        "code": {
          "coding": [
            {
              "system": "http://loinc.org",
              "code": "8867-4",
              "display": "Heart rate"
            }
          ]
        },
        "subject": {
          "reference": "Patient/7304958"
        },
        "effectivePeriod": {
          "start": "2023-01-26T04:29:00.000+01:00",
          "end": "2023-01-26T04:29:00.000+01:00"
        },
        "valueQuantity": {
          "value": 55.0,
          "unit": "beats/min",
          "system": "http://unitsofmeasure.org",
          "code": "/min"
        }
      },
      "search": {
        "mode": "match"
      }
    },
    {
      "fullUrl": "https://hapi.fhir.org/baseR4/Observation/8931532",
      "resource": {
        "resourceType": "Observation",
        "id": "8931532",
        "meta": {
          "versionId": "1",
          "lastUpdated": "2023-03-29T16:01:08.896+00:00",
          "source": "#ZjWzeNt0Gb5HoUdq"
        },
        "status": "final",
        "code": {
          "coding": [
            {
              "system": "http://loinc.org",
              "code": "8867-4",
              "display": "Heart rate"
            }
          ]
        },
        "subject": {
          "reference": "Patient/7304958"
        },
        "effectivePeriod": {
          "start": "2023-01-26T04:30:00.000+01:00",
          "end": "2023-01-26T04:30:00.000+01:00"
        },
        "valueQuantity": {
          "value": 53.0,
          "unit": "beats/min",
          "system": "http://unitsofmeasure.org",
          "code": "/min"
        }
      },
      "search": {
        "mode": "match"
      }
    },
    {
      "fullUrl": "https://hapi.fhir.org/baseR4/Observation/7173408",
      "resource": {
        "resourceType": "Observation",
        "id": "7173408",
        "meta": {
          "versionId": "1",
          "lastUpdated": "2022-12-02T07:28:02.846+00:00",
          "source": "#gyrDoGeN68gfC2ch"
        },
        "text": {
          "status": "generated",
          "div": "<div xmlns=\"http://www.w3.org/1999/xhtml\">Name:<br/></div>"
        },
        "status": "final",
        "category": [
          {
            "coding": [
              {
                "system": "http://terminology.hl7.org/CodeSystem/observation-category",
                "code": "vital-signs",
                "display": "Vital Signs"
              }
            ],
            "text": "Vital Signs"
          }
        ],
        "code": {
          "coding": [
            {
              "system": "http://loinc.org",
              "code": "8331-1"
            }
          ],
          "text": "Temperature Oral"
        },
        "subject": {
          "reference": "Patient/579367"
        },
        "effectiveDateTime": "2022-12-02T07:28:02.3809169+00:00",
        "valueQuantity": {
          "value": 20,
          "unit": "degC",
          "system": "http://unitsofmeasure.org",
          "code": "Cel"
        }
      },
      "search": {
        "mode": "match"
      }
    },
    {
      "fullUrl": "https://hapi.fhir.org/baseR4/Observation/7173409",
      "resource": {
        "resourceType": "Observation",
        "id": "7173409",
        "meta": {
          "versionId": "1",
          "lastUpdated": "2022-12-02T07:28:03.681+00:00",
          "source": "#dhb4UvP3DRk9FlbP"
        },
        "text": {
          "status": "generated",
          "div": "<div xmlns=\"http://www.w3.org/1999/xhtml\">Name:<br/></div>"
        },
        "status": "final",
        "category": [
          {
            "coding": [
              {
                "system": "http://terminology.hl7.org/CodeSystem/observation-category",
                "code": "vital-signs",
                "display": "Vital Signs"
              }
            ],
            "text": "Vital Signs"
          }
        ],
        "code": {
          "coding": [
            {
              "system": "http://loinc.org",
              "code": "8331-1"
            }
          ],
          "text": "Temperature Oral"
        },
        "subject": {
          "reference": "Patient/579367"
        },
        "effectiveDateTime": "2022-12-02T07:28:03.5372031+00:00",
        "valueQuantity": {
          "value": 10,
          "unit": "degC",
          "system": "http://unitsofmeasure.org",
          "code": "Cel"
        }
      },
      "search": {
        "mode": "match"
      }
    },
    {
      "fullUrl": "https://hapi.fhir.org/baseR4/Observation/8931674",
      "resource": {
        "resourceType": "Observation",
        "id": "8931674",
        "meta": {
          "versionId": "1",
          "lastUpdated": "2023-03-29T16:01:29.830+00:00",
          "source": "#ZjWzeNt0Gb5HoUdq"
        },
        "status": "final",
        "code": {
          "coding": [
            {
              "system": "http://loinc.org",
              "code": "8867-4",
              "display": "Heart rate"
            }
          ]
        },
        "subject": {
          "reference": "Patient/7304958"
        },
        "effectivePeriod": {
          "start": "2023-01-26T06:52:00.000+01:00",
          "end": "2023-01-26T06:52:00.000+01:00"
        },
        "valueQuantity": {
          "value": 55.0,
          "unit": "beats/min",
          "system": "http://unitsofmeasure.org",
          "code": "/min"
        }
      },
      "search": {
        "mode": "match"
      }
    },
    {
      "fullUrl": "https://hapi.fhir.org/baseR4/Observation/8931675",
      "resource": {
        "resourceType": "Observation",
        "id": "8931675",
        "meta": {
          "versionId": "1",
          "lastUpdated": "2023-03-29T16:01:30.044+00:00",
          "source": "#ZjWzeNt0Gb5HoUdq"
        },
        "status": "final",
        "code": {
          "coding": [
            {
              "system": "http://loinc.org",
              "code": "8867-4",
              "display": "Heart rate"
            }
          ]
        },
        "subject": {
          "reference": "Patient/7304958"
        },
        "effectivePeriod": {
          "start": "2023-01-26T06:53:00.000+01:00",
          "end": "2023-01-26T06:53:00.000+01:00"
        },
        "valueQuantity": {
          "value": 58.0,
          "unit": "beats/min",
          "system": "http://unitsofmeasure.org",
          "code": "/min"
        }
      },
      "search": {
        "mode": "match"
      }
    },
    {
      "fullUrl": "https://hapi.fhir.org/baseR4/Observation/8931676",
      "resource": {
        "resourceType": "Observation",
        "id": "8931676",
        "meta": {
          "versionId": "1",
          "lastUpdated": "2023-03-29T16:01:30.133+00:00",
          "source": "#ZjWzeNt0Gb5HoUdq"
        },
        "status": "final",
        "code": {
          "coding": [
            {
              "system": "http://loinc.org",
              "code": "8867-4",
              "display": "Heart rate"
            }
          ]
        },
        "subject": {
          "reference": "Patient/7304958"
        },
        "effectivePeriod": {
          "start": "2023-01-26T06:54:00.000+01:00",
          "end": "2023-01-26T06:54:00.000+01:00"
        },
        "valueQuantity": {
          "value": 70.0,
          "unit": "beats/min",
          "system": "http://unitsofmeasure.org",
          "code": "/min"
        }
      },
      "search": {
        "mode": "match"
      }
    },
    {
      "fullUrl": "https://hapi.fhir.org/baseR4/Patient/579367",
      "resource": {
        "resourceType": "Patient",
        "id": "579367",
        "meta": {
          "versionId": "3",
          "lastUpdated": "2022-12-19T06:53:05.233+00:00",
          "source": "#0sqYuJBU3eLjZYGX"
        },
        "text": {
          "status": "generated",
          "div": "<div xmlns=\"http://www.w3.org/1999/xhtml\"><div class=\"hapiHeaderText\">Roshni <b>SAHU </b></div><table class=\"hapiPropertyTable\"><tbody><tr><td>Identifier</td><td>12345</td></tr><tr><td>Address</td><td><span>534 Erewhon St </span><br/><span>PleasantVille </span><span>Vic </span></td></tr><tr><td>Date of birth</td><td><span>25 December 1974</span></td></tr></tbody></table></div>"
        },
        "identifier": [
          {
            "use": "usual",
            "type": {
              "coding": [
                {
                  "system": "http://terminology.hl7.org/CodeSystem/v2-0203",
                  "code": "MR"
                }
              ]
            },
            "system": "urn:oid:1.2.36.146.595.217.0.1",
            "value": "12345",
            "period": {
              "start": "2001-05-06"
            },
            "assigner": {
              "display": "Acme Healthcare"
            }
          }
        ],
        "active": true,
        "name": [
          {
            "use": "official",
            "family": "Tuncer",
            "given": [
              "\u0130sa"
            ]
          },
          {
            "use": "usual",
            "given": [
              "Jim"
            ]
          }
        ],
        "telecom": [
          {
            "use": "home"
          },
          {
            "system": "phone",
            "value": "(03) 5555 6473",
            "use": "work",
            "rank": 1
          },
          {
            "system": "phone",
            "value": "(03) 3410 5613",
            "use": "mobile",
            "rank": 2
          },
          {
            "system": "phone",
            "value": "(03) 5555 8834",
            "use": "old",
            "period": {
              "end": "2014"
            }
          }
        ],
        "gender": "male",
        "birthDate": "1974-12-25",
        "_birthDate": {
          "extension": [
            {
              "url": "http://hl7.org/fhir/StructureDefinition/patient-birthTime",
              "valueDateTime": "1974-12-25T14:35:45-05:00"
            }
          ]
        },
        "deceasedBoolean": false,
        "address": [
          {
            "use": "home",
            "type": "both",
            "text": "534 Erewhon St PeasantVille, Rainbow, Vic  3999",
            "line": [
              "534 Erewhon St"
            ],
            "city": "PleasantVille",
            "district": "Rainbow",
            "state": "Vic",
            "postalCode": "3999",
            "period": {
              "start": "1974-12-25"
            }
          }
        ],
        "contact": [
          {
            "relationship": [
              {
                "coding": [
                  {
                    "system": "http://terminology.hl7.org/CodeSystem/v2-0131",
                    "code": "N"
                  }
                ]
              }
            ],
            "name": {
              "family": "du March\u00c3\u00a9",
              "_family": {
                "extension": [
                  {
                    "url": "http://hl7.org/fhir/StructureDefinition/humanname-own-prefix",
                    "valueString": "VV"
                  }
                ]
              },
              "given": [
                "B\u00c3\u00a9n\u00c3\u00a9dicte"
              ]
            },
            "telecom": [
              {
                "system": "phone",
                "value": "+33 (237) 998327"
              }
            ],
            "address": {
              "use": "home",
              "type": "both",
              "line": [
                "534 Erewhon St"
              ],
              "city": "PleasantVille",
              "district": "Rainbow",
              "state": "Vic",
              "postalCode": "3999",
              "period": {
                "start": "1974-12-25"
              }
            },
            "gender": "female",
            "period": {
              "start": "2012"
            }
          }
        ],
        "generalPractitioner": [
          {
            "reference": "Practitioner/579285",
            "display": "Dr. Murali"
          }
        ]
      },
      "search": {
        "mode": "include"
      }
    },
    {
      "fullUrl": "https://hapi.fhir.org/baseR4/Patient/7304958",
      "resource": {
        "resourceType": "Patient",
        "id": "7304958",
        "meta": {
          "versionId": "4",
          "lastUpdated": "2023-04-18T15:08:51.050+00:00",
          "source": "#TWwweOgrPAcFCuD9"
        },
        "text": {
          "status": "generated",
          "div": "<div xmlns=\"http://www.w3.org/1999/xhtml\"><div class=\"hapiHeaderText\">Fittest <b>PERSON </b></div><table class=\"hapiPropertyTable\"><tbody><tr><td>Identifier</td><td>111111111</td></tr><tr><td>Date of birth</td><td><span>01 January 1971</span></td></tr></tbody></table></div>"
        },
        "name": [
          {
            "family": "Person",
            "given": [
              "Fittest"
            ]
          }
        ],
        "gender": "male",
        "birthDate": "1971-01-01"
      },
      "search": {
        "mode": "include"
      }
    }
  ]
}