{
  "resourceType": "Bundle",
  "id": "090ee13e-0c3d-4371-936b-8aedc27fd24a",
  "meta": {
    "lastUpdated": "2023-05-02T08:48:03.203+00:00"
  },
  "type": "searchset",
  "link": [
    {
      "relation": "self",
      "url": "https://hapi.fhir.org/baseR4/Condition?_include=*"
    },
    {
      "relation": "next",
      "url": "https://hapi.fhir.org/baseR4?_getpages=090ee13e-0c3d-4371-936b-8aedc27fd24a&_getpagesoffset=20&_count=20&_pretty=true&_include=*&_bundletype=searchset"
    }
  ],
  "entry": [
    {
      "fullUrl": "https://hapi.fhir.org/baseR4/Condition/gtc106",
      "resource": {
        "resourceType": "Condition",
        "id": "gtc106",
        "meta": {
          "versionId": "1",
          "lastUpdated": "2019-09-18T18:45:55.877+00:00",
          "source": "#2fc9ee4c29f0eff4"
        },
        "code": {
          "coding": [
            {
              "system": "http://hl7.org/fhir/sid/icd-10",
              "code": "I46.9",
              "display": "Cardiac arrest, cause unspecified"
            }
          ]
        },
        "subject": {
          "reference": "Patient/gtp101"
        },
        "onsetDateTime": "2019-07-30T01:00:00.000-05:00"
      },
      "search": {
        "mode": "match"
      }
    },
    {
      "fullUrl": "https://hapi.fhir.org/baseR4/Condition/gtc107",
      "resource": {
        "resourceType": "Condition",
        "id": "gtc107",
        "meta": {
          "versionId": "1",
          "lastUpdated": "2019-09-18T18:45:55.877+00:00",
          "source": "#2fc9ee4c29f0eff4"
        },
        "code": {
          "coding": [
            {
              "system": "http://hl7.org/fhir/sid/icd-10",
              "code": "R65.21",
              "display": "Severe sepsis with septic shock"
            }
          ]
        },
        "subject": {
          "reference": "Patient/gtp101"
        },
        "onsetDateTime": "2019-07-29T00:00:00.000-05:00"
      },
      "search": {
        "mode": "match"
      }
    },
    {
      "fullUrl": "https://hapi.fhir.org/baseR4/Condition/39238",
      "resource": {
        "resourceType": "Condition",
        "id": "39238",
        "meta": {
          "versionId": "1",
          "lastUpdated": "2019-10-01T11:52:50.769+00:00",
          "source": "#501b627f9543171f"
        },
        "clinicalStatus": {
          "coding": [
            {
              "system": "http://hl7.org/fhir/condition-clinical",
              "code": "resolved",
              "display": "Resolved"
            }
          ]
        },
        "code": {
          "coding": [
            {
              "system": "http://snomed.info/sct",
              "code": "11101003",
              "display": "PTCA"
            }
          ]
        },
        "subject": {
          "reference": "Patient/39254"
        },
        "onsetDateTime": "1999-03"
      },
      "search": {
        "mode": "match"
      }
    },
    {
      "fullUrl": "https://hapi.fhir.org/baseR4/Condition/39239",
      "resource": {
        "resourceType": "Condition",
        "id": "39239",
        "meta": {
          "versionId": "1",
          "lastUpdated": "2019-10-01T11:52:50.769+00:00",
          "source": "#501b627f9543171f"
        },
        "clinicalStatus": {
          "coding": [
            {
              "system": "http://hl7.org/fhir/condition-clinical",
              "code": "resolved",
              "display": "Resolved"
            }
          ]
        },
        "code": {
          "coding": [
            {
              "system": "http://snomed.info/sct",
              "code": "22298006",
              "display": "Myocardial infarction"
            }
          ]
        },
        "subject": {
          "reference": "Patient/39254"
        },
        "onsetDateTime": "1997-01"
      },
      "search": {
        "mode": "match"
      }
    },
    {
      "fullUrl": "https://hapi.fhir.org/baseR4/Condition/39256",
      "resource": {
        "resourceType": "Condition",
        "id": "39256",
        "meta": {
          "versionId": "1",
          "lastUpdated": "2019-10-01T11:55:45.788+00:00",
          "source": "#a0a73b22a745cf5f"
        },
        "clinicalStatus": {
          "coding": [
            {
              "system": "http://hl7.org/fhir/condition-clinical",
              "code": "active",
              "display": "Active"
            }
          ]
        },
        "code": {
          "coding": [
            {
              "system": "http://snomed.info/sct",
              "code": "195967001",
              "display": "Asthma"
            }
          ]
        },
        "subject": {
          "reference": "Patient/39254"
        },
        "onsetDateTime": "1950"
      },
      "search": {
        "mode": "match"
      }
    },
    {
      "fullUrl": "https://hapi.fhir.org/baseR4/Condition/39257",
      "resource": {
        "resourceType": "Condition",
        "id": "39257",
        "meta": {
          "versionId": "1",
          "lastUpdated": "2019-10-01T11:55:45.788+00:00",
          "source": "#a0a73b22a745cf5f"
        },
        "clinicalStatus": {
          "coding": [
            {
              "system": "http://hl7.org/fhir/condition-clinical",
              "code": "resolved",
              "display": "Resolved"
            }
          ]
        },
        "code": {
          "coding": [
            {
              "system": "http://snomed.info/sct",
              "code": "233604007",
              "display": "Pneumonia"
            }
          ]
        },
        "subject": {
          "reference": "Patient/39254"
        },
        "onsetDateTime": "1997-01"
      },
      "search": {
        "mode": "match"
      }
    },
    {
      "fullUrl": "https://hapi.fhir.org/baseR4/Condition/39258",
      "resource": {
        "resourceType": "Condition",
        "id": "39258",
        "meta": {
          "versionId": "1",
          "lastUpdated": "2019-10-01T11:55:45.788+00:00",
          "source": "#a0a73b22a745cf5f"
        },
        "clinicalStatus": {
          "coding": [
            {
              "system": "http://hl7.org/fhir/condition-clinical",
              "code": "resolved",
              "display": "Resolved"
            }
          ]
        },
        "code": {
          "coding": [
            {
              "system": "http://snomed.info/sct",
              "code": "11101003",
              "display": "PTCA"
            }
          ]
        },
        "subject": {
          "reference": "Patient/39254"
        },
        "onsetDateTime": "1999-03"
      },
      "search": {
        "mode": "match"
      }
    },
    {
      "fullUrl": "https://hapi.fhir.org/baseR4/Condition/39259",
      "resource": {
        "resourceType": "Condition",
        "id": "39259",
        "meta": {
          "versionId": "1",
          "lastUpdated": "2019-10-01T11:55:45.788+00:00",
          "source": "#a0a73b22a745cf5f"
        },
        "clinicalStatus": {
          "coding": [
            {
              "system": "http://hl7.org/fhir/condition-clinical",
              "code": "resolved",
              "display": "Resolved"
            }
          ]
        },
        "code": {
          "coding": [
            {
              "system": "http://snomed.info/sct",
              "code": "22298006",
              "display": "Myocardial infarction"
            }
          ]
        },
        "subject": {
          "reference": "Patient/39254"
        },
        "onsetDateTime": "1997-01"
      },
      "search": {
        "mode": "match"
      }
    },
    {
      "fullUrl": "https://hapi.fhir.org/baseR4/Condition/39274",
      "resource": {
        "resourceType": "Condition",
        "id": "39274",
        "meta": {
          "versionId": "1",
          "lastUpdated": "2019-10-01T11:57:08.886+00:00",
          "source": "#b56fd535cd79f195"
        },
        "clinicalStatus": {
          "coding": [
            {
              "system": "http://hl7.org/fhir/condition-clinical",
              "code": "active",
              "display": "Active"
            }
          ]
        },
        "code": {
          "coding": [
            {
              "system": "http://snomed.info/sct",
              "code": "195967001",
              "display": "Asthma"
            }
          ]
        },
        "subject": {
          "reference": "Patient/39254"
        },
        "onsetDateTime": "1950"
      },
      "search": {
        "mode": "match"
      }
    },
    {
      "fullUrl": "https://hapi.fhir.org/baseR4/Condition/39275",
      "resource": {
        "resourceType": "Condition",
        "id": "39275",
        "meta": {
          "versionId": "1",
          "lastUpdated": "2019-10-01T11:57:08.886+00:00",
          "source": "#b56fd535cd79f195"
        },
        "clinicalStatus": {
          "coding": [
            {
              "system": "http://hl7.org/fhir/condition-clinical",
              "code": "resolved",
              "display": "Resolved"
            }
          ]
        },
        "code": {
          "coding": [
            {
              "system": "http://snomed.info/sct",
              "code": "233604007",
              "display": "Pneumonia"
            }
          ]
        },
        "subject": {
          "reference": "Patient/39254"
        },
        "onsetDateTime": "1997-01"
      },
      "search": {
        "mode": "match"
      }
    },
    {
      "fullUrl": "https://hapi.fhir.org/baseR4/Condition/39276",
      "resource": {
        "resourceType": "Condition",
        "id": "39276",
        "meta": {
          "versionId": "1",
          "lastUpdated": "2019-10-01T11:57:08.886+00:00",
          "source": "#b56fd535cd79f195"
        },
        "clinicalStatus": {
          "coding": [
            {
              "system": "http://hl7.org/fhir/condition-clinical",
              "code": "resolved",
              "display": "Resolved"
            }
          ]
        },
        "code": {
          "coding": [
            {
              "system": "http://snomed.info/sct",
              "code": "11101003",
              "display": "PTCA"
            }
          ]
        },
        "subject": {
          "reference": "Patient/39254"
        },
        "onsetDateTime": "1999-03"
      },
      "search": {
        "mode": "match"
      }
    },
    {
      "fullUrl": "https://hapi.fhir.org/baseR4/Condition/39277",
      "resource": {
        "resourceType": "Condition",
        "id": "39277",
        "meta": {
          "versionId": "1",
          "lastUpdated": "2019-10-01T11:57:08.886+00:00",
          "source": "#b56fd535cd79f195"
        },
        "clinicalStatus": {
          "coding": [
            {
              "system": "http://hl7.org/fhir/condition-clinical",
              "code": "resolved",
              "display": "Resolved"
            }
          ]
        },
        "code": {
          "coding": [
            {
              "system": "http://snomed.info/sct",
              "code": "22298006",
              "display": "Myocardial infarction"
            }
          ]
        },
        "subject": {
          "reference": "Patient/39254"
        },
        "onsetDateTime": "1997-01"
      },
      "search": {
        "mode": "match"
      }
    },
    {
      "fullUrl": "https://hapi.fhir.org/baseR4/Condition/39393",
      "resource": {
        "resourceType": "Condition",
        "id": "39393",
        "meta": {
          "versionId": "1",
          "lastUpdated": "2019-10-01T18:20:52.229+00:00",
          "source": "#d5cd41857280ffbe"
        },
        "clinicalStatus": {
          "coding": [
            {
              "system": "http://terminology.hl7.org/CodeSystem/condition-clinical",
              "code": "active"
            }
          ]
        },
        "verificationStatus": {
          "coding": [
            {
              "system": "http://terminology.hl7.org/CodeSystem/condition-ver-status",
              "code": "confirmed"
            }
          ]
        },
        "category": [
          {
            "coding": [
              {
                "system": "http://snomed.info/sct",
                "code": "55607006",
                "display": "Problem"
              },
              {
                "system": "http://terminology.hl7.org/CodeSystem/condition-category",
                "code": "problem-list-item"
              }
            ]
          }
        ],
        "severity": {
          "coding": [
            {
              "system": "http://snomed.info/sct",
              "code": "255604002",
              "display": "Mild"
            }
          ]
        },
        "code": {
          "coding": [
            {
              "system": "http://snomed.info/sct",
              "code": "386661006",
              "display": "Fever"
            }
          ]
        },
        "bodySite": [
          {
            "coding": [
              {
                "system": "http://snomed.info/sct",
                "code": "38266002",
                "display": "Entire body as a whole"
              }
            ]
          }
        ],
        "subject": {
          "reference": "Patient/1202",
          "display": "Roel"
        },
        "onsetDateTime": "2013-04-02",
        "abatementString": "around April 9, 2013",
        "recordedDate": "2019-04-04",
        "recorder": {
          "reference": "Practitioner/1058"
        },
        "asserter": {
          "reference": "Practitioner/1058"
        },
        "evidence": [
          {
            "code": [
              {
                "coding": [
                  {
                    "system": "http://snomed.info/sct",
                    "code": "258710007",
                    "display": "degrees C"
                  }
                ]
              }
            ],
            "detail": [
              {
                "display": "Temperature"
              }
            ]
          }
        ]
      },
      "search": {
        "mode": "match"
      }
    },
    {
      "fullUrl": "https://hapi.fhir.org/baseR4/Condition/39398",
      "resource": {
        "resourceType": "Condition",
        "id": "39398",
        "meta": {
          "versionId": "1",
          "lastUpdated": "2019-10-01T18:34:59.103+00:00",
          "source": "#e298eb308968db21"
        },
        "clinicalStatus": {
          "coding": [
            {
              "system": "http://terminology.hl7.org/CodeSystem/condition-clinical",
              "code": "active"
            }
          ]
        },
        "verificationStatus": {
          "coding": [
            {
              "system": "http://terminology.hl7.org/CodeSystem/condition-ver-status",
              "code": "confirmed"
            }
          ]
        },
        "category": [
          {
            "coding": [
              {
                "system": "http://snomed.info/sct",
                "code": "encounter-diagnosis",
                "display": "Condition"
              }
            ]
          }
        ],
        "severity": {
          "coding": [
            {
              "system": "http://snomed.info/sct",
              "code": "24484000",
              "display": "Severe"
            }
          ]
        },
        "code": {
          "coding": [
            {
              "system": "http://snomed.info/sct",
              "code": "386661006",
              "display": "Severe Cardiac Arrest"
            }
          ]
        },
        "bodySite": [
          {
            "coding": [
              {
                "system": "http://snomed.info/sct",
                "code": "38266002",
                "display": "Entire body as a whole"
              }
            ]
          }
        ],
        "subject": {
          "reference": "Patient/1203",
          "display": "Xyz"
        },
        "onsetDateTime": "2019-04-02",
        "abatementString": "around April 9, 2013",
        "recordedDate": "2019-04-04",
        "recorder": {
          "reference": "Practitioner/1058"
        },
        "asserter": {
          "reference": "Practitioner/1058"
        },
        "evidence": [
          {
            "code": [
              {
                "coding": [
                  {
                    "system": "http://snomed.info/sct",
                    "code": "2835000",
                    "display": "Hemolytic anemia due to cardiac trauma"
                  }
                ]
              }
            ],
            "detail": [
              {
                "display": "Traumatic cardiac hemolytic anemia"
              }
            ]
          }
        ]
      },
      "search": {
        "mode": "match"
      }
    },
    {
      "fullUrl": "https://hapi.fhir.org/baseR4/Condition/39539",
      "resource": {
        "resourceType": "Condition",
        "id": "39539",
        "meta": {
          "versionId": "1",
          "lastUpdated": "2019-10-03T08:23:16.555+00:00",
          "source": "#16603bb923676fa5"
        },
        "clinicalStatus": {
          "coding": [
            {
              "system": "http://hl7.org/fhir/condition-clinical",
              "code": "active",
              "display": "Active"
            }
          ]
        },
        "code": {
          "coding": [
            {
              "system": "http://snomed.info/sct",
              "code": "195967001",
              "display": "Asthma"
            }
          ]
        },
        "subject": {
          "reference": "Patient/39254"
        },
        "onsetDateTime": "1950"
      },
      "search": {
        "mode": "match"
      }
    },
    {
      "fullUrl": "https://hapi.fhir.org/baseR4/Condition/39540",
      "resource": {
        "resourceType": "Condition",
        "id": "39540",
        "meta": {
          "versionId": "1",
          "lastUpdated": "2019-10-03T08:23:16.555+00:00",
          "source": "#16603bb923676fa5"
        },
        "clinicalStatus": {
          "coding": [
            {
              "system": "http://hl7.org/fhir/condition-clinical",
              "code": "resolved",
              "display": "Resolved"
            }
          ]
        },
        "code": {
          "coding": [
            {
              "system": "http://snomed.info/sct",
              "code": "233604007",
              "display": "Pneumonia"
            }
          ]
        },
        "subject": {
          "reference": "Patient/39254"
        },
        "onsetDateTime": "1997-01"
      },
      "search": {
        "mode": "match"
      }
    },
    {
      "fullUrl": "https://hapi.fhir.org/baseR4/Condition/39541",
      "resource": {
        "resourceType": "Condition",
        "id": "39541",
        "meta": {
          "versionId": "1",
          "lastUpdated": "2019-10-03T08:23:16.555+00:00",
          "source": "#16603bb923676fa5"
        },
        "clinicalStatus": {
          "coding": [
            {
              "system": "http://hl7.org/fhir/condition-clinical",
              "code": "resolved",
              "display": "Resolved"
            }
          ]
        },
        "code": {
          "coding": [
            {
              "system": "http://snomed.info/sct",
              "code": "11101003",
              "display": "PTCA"
            }
          ]
        },
        "subject": {
          "reference": "Patient/39254"
        },
        "onsetDateTime": "1999-03"
      },
      "search": {
        "mode": "match"
      }
    },
    {
      "fullUrl": "https://hapi.fhir.org/baseR4/Condition/39542",
      "resource": {
        "resourceType": "Condition",
        "id": "39542",
        "meta": {
          "versionId": "1",
          "lastUpdated": "2019-10-03T08:23:16.555+00:00",
          "source": "#16603bb923676fa5"
        },
        "clinicalStatus": {
          "coding": [
            {
              "system": "http://hl7.org/fhir/condition-clinical",
              "code": "resolved",
              "display": "Resolved"
            }
          ]
        },
        "code": {
          "coding": [
            {
              "system": "http://snomed.info/sct",
              "code": "22298006",
              "display": "Myocardial infarction"
            }
          ]
        },
        "subject": {
          "reference": "Patient/39254"
        },
        "onsetDateTime": "1997-01"
      },
      "search": {
        "mode": "match"
      }
    },
    {
      "fullUrl": "https://hapi.fhir.org/baseR4/Condition/39558",
      "resource": {
        "resourceType": "Condition",
        "id": "39558",
        "meta": {
          "versionId": "1",
          "lastUpdated": "2019-10-03T08:30:04.246+00:00",
          "source": "#64536d0ed0d7983b"
        },
        "clinicalStatus": {
          "coding": [
            {
              "system": "http://hl7.org/fhir/condition-clinical",
              "code": "active",
              "display": "Active"
            }
          ]
        },
        "code": {
          "coding": [
            {
              "system": "http://snomed.info/sct",
              "code": "195967001",
              "display": "Asthma"
            }
          ]
        },
        "subject": {
          "reference": "Patient/39254"
        },
        "onsetDateTime": "1950"
      },
      "search": {
        "mode": "match"
      }
    },
    {
      "fullUrl": "https://hapi.fhir.org/baseR4/Condition/39559",
      "resource": {
        "resourceType": "Condition",
        "id": "39559",
        "meta": {
          "versionId": "1",
          "lastUpdated": "2019-10-03T08:30:04.246+00:00",
          "source": "#64536d0ed0d7983b"
        },
        "clinicalStatus": {
          "coding": [
            {
              "system": "http://hl7.org/fhir/condition-clinical",
              "code": "resolved",
              "display": "Resolved"
            }
          ]
        },
        "code": {
          "coding": [
            {
              "system": "http://snomed.info/sct",
              "code": "233604007",
              "display": "Pneumonia"
            }
          ]
        },
        "subject": {
          "reference": "Patient/39254"
        },
        "onsetDateTime": "1997-01"
      },
      "search": {
        "mode": "match"
      }
    },
    {
      "fullUrl": "https://hapi.fhir.org/baseR4/Patient/1202",
      "resource": {
        "resourceType": "Patient",
        "id": "1202",
        "meta": {
          "versionId": "8",
          "lastUpdated": "2022-11-15T09:06:15.314+00:00",
          "source": "#kZ4ar5H6jxTmhYHh"
        },
        "text": {
          "status": "generated",
          "div": "<div xmlns=\"http://www.w3.org/1999/xhtml\"> <div class=\"hapiHeaderText\">Jyoti <b>Sahu </b> </div> <table class=\"hapiPropertyTable\"> <tbody> <tr> <td>Identifier</td> <td>5911bfd0-687e-4ac9-ab37-04e8815e4f0d</td> </tr> </tbody> </table> </div>"
        },
        "identifier": [
          {
            "type": {
              "coding": [
                {
                  "system": "http://hl7.org/fhir/v2/0203",
                  "code": "MR"
                }
              ]
            },
            "value": "5911bfd0-687e-4ac9-ab37-04e8815e4f0d"
          }
        ],
        "name": [
          {
            "family": "Jyoti",
            "given": [
              "Sahu"
            ]
          }
        ],
        "telecom": [
          {
            "system": "email",
            "value": "jyoti.sahu@gmail.com",
            "use": "work"
          },
          {
            "system": "phone",
            "value": "061235222",
            "use": "home"
          },
          {
            "system": "phone",
            "value": "0632152212",
            "use": "work"
          }
        ],
        "gender": "male",
        "birthDate": "1980-11-18",
        "address": [
          {
            "city": "US"
          }
        ],
        "generalPractitioner": [
          {
            "reference": "Practitioner/1058",
            "display": "Guru-General Practitioner"
          }
        ],
        "managingOrganization": {
          "reference": "Organization/1621"
        }
      },
      "search": {
        "mode": "include"
      }
    },
    {
      "fullUrl": "https://hapi.fhir.org/baseR4/Practitioner/1058",
      "resource": {
        "resourceType": "Practitioner",
        "id": "1058",
        "meta": {
          "versionId": "12",
          "lastUpdated": "2023-03-01T14:59:08.910+00:00",
          "source": "#4ZkoLW6e4MijWK0c"
        },
        "identifier": [
          {
            "use": "official",
            "system": "https://radboud.nl/identifiers/PractitionerIdentifier",
            "value": "Vaz"
          },
          {
            "use": "official",
            "type": {
              "coding": [
                {
                  "system": "http://terminology.hl7.org/CodeSystem/v2-0203",
                  "code": "PRN",
                  "display": "938277859"
                }
              ]
            },
            "system": "http://hl7.org/fhir/sid/us-npi",
            "value": "938277859"
          }
        ],
        "active": true,
        "name": [
          {
            "family": "Guru",
            "given": [
              "Tata"
            ],
            "prefix": [
              "DR"
            ]
          }
        ],
        "telecom": [
          {
            "system": "phone",
            "value": "8411915364",
            "use": "work"
          },
          {
            "system": "email",
            "value": "guru@appexinnovation.com",
            "use": "work"
          }
        ],
        "gender": "male",
        "communication": [
          {
            "coding": [
              {
                "system": "urn:ietf:bcp:47",
                "code": "en",
                "display": "English"
              }
            ]
          }
        ]
      },
      "search": {
        "mode": "include"
      }
    },
    {
      "fullUrl": "https://hapi.fhir.org/baseR4/Patient/1203",
      "resource": {
        "resourceType": "Patient",
        "id": "1203",
        "meta": {
          "versionId": "14",
          "lastUpdated": "2020-09-04T19:21:43.309+00:00",
          "source": "#DaNQToCvaCx46SEM"
        },
        "text": {
          "status": "generated",
          "div": "<div xmlns=\"http://www.w3.org/1999/xhtml\"> <div class=\"hapiHeaderText\">Aaron <b>HANK </b> </div> <table class=\"hapiPropertyTable\"> <tbody> <tr> <td>Identifier</td> <td>5911bfd0-687e-4ac9-ab37-04e8815e4f0d</td> </tr> <tr> <td>Address</td> <td> <span>UK </span> </td> </tr> <tr> <td>Date of birth</td> <td> <span>18 February 1960</span> </td> </tr> </tbody> </table> </div>"
        },
        "identifier": [
          {
            "type": {
              "coding": [
                {
                  "system": "http://hl7.org/fhir/v2/0203",
                  "code": "MR"
                }
              ]
            },
            "value": "5911bfd0-687e-4ac9-ab37-04e8815e4f0d"
          }
        ],
        "name": [
          {
            "family": "Hank",
            "given": [
              "Aaron"
            ]
          }
        ],
        "telecom": [
          {
            "system": "email",
            "value": "hank.aaron@appexinnovation.com",
            "use": "work"
          },
          {
            "system": "phone",
            "value": "0612789638",
            "use": "home"
          },
          {
            "system": "phone",
            "value": "069562639",
            "use": "work"
          }
        ],
        "gender": "male",
        "birthDate": "1961-02-10",
        "address": [
          {
            "city": "UK"
          }
        ],
        "generalPractitioner": [
          {
            "reference": "Practitioner/1058",
            "display": "Guru-General Practitioner"
          }
        ],
        "managingOrganization": {
          "reference": "Organization/1621",
          "display": "PHARMACIE DU GINKGO"
        }
      },
      "search": {
        "mode": "include"
      }
    },
    {
      "fullUrl": "https://hapi.fhir.org/baseR4/Patient/39254",
      "resource": {
        "resourceType": "Patient",
        "id": "39254",
        "meta": {
          "versionId": "3",
          "lastUpdated": "2020-08-28T15:12:12.739+00:00",
          "source": "#eRUwTpSEF3mREFO0"
        },
        "text": {
          "status": "generated",
          "div": "<div xmlns=\"http://www.w3.org/1999/xhtml\"><div class=\"hapiHeaderText\">Henry_3 <b>LEVIN_3 </b> the 7th_3 </div><table class=\"hapiPropertyTable\"><tbody><tr><td>Identifier</td><td>996-756-495-3</td></tr><tr><td>Date of birth</td><td><span>24 September 1932</span></td></tr></tbody></table></div>"
        },
        "identifier": [
          {
            "type": {
              "coding": [
                {
                  "system": "http://terminology.hl7.org/CodeSystem/v2-0203",
                  "code": "MR",
                  "display": "Medical record number"
                }
              ]
            },
            "system": "http://hl7.org/fhir/identifier-type",
            "value": "996-756-495-3"
          }
        ],
        "name": [
          {
            "use": "usual",
            "family": "Levin_3",
            "given": [
              "Henry_3"
            ],
            "suffix": [
              "the 7th_3"
            ]
          }
        ],
        "gender": "male",
        "birthDate": "1964-09-24",
        "maritalStatus": {
          "coding": [
            {
              "system": "http://terminology.hl7.org/CodeSystem/v3-MaritalStatus",
              "code": "M",
              "display": "Married"
            }
          ]
        },
        "managingOrganization": {
          "reference": "Organization/185"
        }
      },
      "search": {
        "mode": "include"
      }
    },
    {
      "fullUrl": "https://hapi.fhir.org/baseR4/Patient/gtp101",
      "resource": {
        "resourceType": "Patient",
        "id": "gtp101",
        "meta": {
          "versionId": "4",
          "lastUpdated": "2020-12-11T19:17:27.172+00:00",
          "source": "#f4P6OZY8WX2WA4Hq"
        },
        "text": {
          "status": "generated",
          "div": "<div xmlns=\"http://www.w3.org/1999/xhtml\"><div class=\"hapiHeaderText\">Herbert <b>HOOVER </b></div><table class=\"hapiPropertyTable\"><tbody><tr><td>Identifier</td><td>078-05-1120</td></tr><tr><td>Address</td><td><span>123 Main Street North </span><br/><span>Everytown </span><span>USA </span></td></tr><tr><td>Date of birth</td><td><span>04 July 1990</span></td></tr></tbody></table></div>"
        },
        "identifier": [
          {
            "use": "usual",
            "system": "urn:oid:2.16.840.1.113883.4.642.2.30",
            "value": "078-05-1120",
            "assigner": {
              "display": "U.S. Social Security Administration"
            }
          }
        ],
        "active": true,
        "name": [
          {
            "use": "official",
            "family": "Hoover",
            "given": [
              "Herbert"
            ]
          }
        ],
        "telecom": [
          {
            "system": "phone",
            "value": "8885551234",
            "use": "home"
          }
        ],
        "gender": "male",
        "birthDate": "1990-07-04",
        "deceasedDateTime": "2019-07-30T02:34:06.000-05:00",
        "address": [
          {
            "use": "home",
            "line": [
              "123 Main Street North"
            ],
            "city": "Everytown",
            "state": "USA",
            "postalCode": "99999"
          }
        ]
      },
      "search": {
        "mode": "include"
      }
    }
  ]
}